{
  "resourceType": "Bundle",
  "id": "bundle-references",
  "type": "collection",
  "entry": [
    {
      "fullUrl": "http://example.org/fhir/Patient/23",
      "resource": {
        "resourceType": "Patient",
        "id": "23",
        "text": {
          "status": "generated",
          "div": "<div xmlns=\"http://www.w3.org/1999/xhtml\"><p><b>Generated Narrative with Details</b></p><p><b>id</b>: 23</p><p><b>identifier</b>: 1234567</p></div>"
        },
        "identifier": [
          {
            "system": "http://example.org/ids",
            "value": "1234567"
          }
        ]
      }
    },
    {
      "fullUrl": "urn:uuid:04121321-4af5-424c-a0e1-ed3aab1c349d",
      "resource": {
        "resourceType": "Patient",
        "text": {
          "status": "generated",
          "div": "<div xmlns=\"http://www.w3.org/1999/xhtml\"><p><b>Generated Narrative with Details</b></p></div>"
        }
      }
    },
    {
      "fullUrl": "http://example.org/fhir/Observation/123",
      "resource": {
        "resourceType": "Observation",
        "id": "123",
        "text": {
          "status": "generated",
          "div": "<div xmlns=\"http://www.w3.org/1999/xhtml\"><p><b>Generated Narrative with Details</b></p><p><b>id</b>: 123</p><p><b>status</b>: final</p><p><b>code</b>: Glucose [Moles/volume] in Blood <span>(Details : {LOINC code '15074-8' = 'Glucose [Moles/volume] in Blood', given as 'Glucose [Moles/volume] in Blood'})</span></p><p><b>subject</b>: <a>Patient/23</a></p></div>"
        },
        "status": "final",
        "code": {
          "coding": [
            {
              "system": "http://loinc.org",
              "code": "15074-8",
              "display": "Glucose [Moles/volume] in Blood"
            }
          ]
        },
        "subject": {
          "reference": "Patient/23"
        }
      }
    },
    {
      "fullUrl": "http://example.org/fhir/Observation/124",
      "resource": {
        "resourceType": "Observation",
        "id": "124",
        "text": {
          "status": "generated",
          "div": "<div xmlns=\"http://www.w3.org/1999/xhtml\"><p><b>Generated Narrative with Details</b></p><p><b>id</b>: 124</p><p><b>status</b>: final</p><p><b>code</b>: Glucose [Moles/volume] in Blood <span>(Details : {LOINC code '15074-8' = 'Glucose [Moles/volume] in Blood', given as 'Glucose [Moles/volume] in Blood'})</span></p><p><b>subject</b>: <a>http://example.org/fhir/Patient/23</a></p></div>"
        },
        "status": "final",
        "code": {
          "coding": [
            {
              "system": "http://loinc.org",
              "code": "15074-8",
              "display": "Glucose [Moles/volume] in Blood"
            }
          ]
        },
        "subject": {
          "reference": "http://example.org/fhir/Patient/23"
        }
      }
    },
    {
      "fullUrl": "http://example.org/fhir/Observation/12",
      "resource": {
        "resourceType": "Observation",
        "id": "12",
        "text": {
          "status": "generated",
          "div": "<div xmlns=\"http://www.w3.org/1999/xhtml\"><p><b>Generated Narrative with Details</b></p><p><b>id</b>: 12</p><p><b>status</b>: final</p><p><b>code</b>: Glucose [Moles/volume] in Blood <span>(Details : {LOINC code '15074-8' = 'Glucose [Moles/volume] in Blood', given as 'Glucose [Moles/volume] in Blood'})</span></p><p><b>subject</b>: <a>urn:uuid:04121321-4af5-424c-a0e1-ed3aab1c349d</a></p></div>"
        },
        "status": "final",
        "code": {
          "coding": [
            {
              "system": "http://loinc.org",
              "code": "15074-8",
              "display": "Glucose [Moles/volume] in Blood"
            }
          ]
        },
        "subject": {
          "reference": "urn:uuid:04121321-4af5-424c-a0e1-ed3aab1c349d"
        }
      }
    }
  ]
}