{
  "resourceType": "Bundle",
  "id": "bundle-references",
  "type": "collection",
  "entry": [
    {
      "fullUrl": "http://example.org/fhir/Patient/23",
      "resource": {
        "resourceType": "Patient",
        "id": "23"
      }
    },
    {
      "fullUrl": "urn:uuid:04121321-4af5-424c-a0e1-ed3aab1c349d",
      "resource": {
        "resourceType": "Patient"
      }
    },
    {
      "fullUrl": "http://example.org/fhir/Observation/123",
      "resource": {
        "resourceType": "Observation",
        "id": "123",
        "status": "final",
        "code": {
          "coding": [
            {
              "system": "http://loinc.org",
              "code": "15074-8",
              "display": "Glucose [Moles/volume] in Blood"
            }
          ]
        },
        "subject": {
          "reference": "Patient/24"
        }
      }
    },
    {
      "fullUrl": "http://example.org/fhir/Observation/124",
      "resource": {
        "resourceType": "Observation",
        "id": "124",
        "status": "final",
        "code": {
          "coding": [
            {
              "system": "http://loinc.org",
              "code": "15074-8",
              "display": "Glucose [Moles/volume] in Blood"
            }
          ]
        },
        "subject": {
          "reference": "http://example.org/fhir/Patient/23"
        }
      }
    },
    {
      "fullUrl": "http://example.org/fhir/Observation/12",
      "resource": {
        "resourceType": "Observation",
        "id": "12",
        "status": "final",
        "code": {
          "coding": [
            {
              "system": "http://loinc.org",
              "code": "15074-8",
              "display": "Glucose [Moles/volume] in Blood"
            }
          ]
        },
        "subject": {
          "reference": "urn:uuid:04121321-4af5-424c-a0e1-ed3aab1c349d"
        }
      }
    }
  ]
}